{"resourceType":"Patient","id":"44d20a43-7131-494b-ba73-063ce7b4bcb2","meta":{"lastUpdated":"2022-07-22T16:48:18.263+00:00","source":"https://mydatahelps.org/identifiers/CareEvolution/MRN/CareEvolutionFHIR"},"extension":[{"url":"http://hl7.org/fhir/StructureDefinition/patient-religion","valueCodeableConcept":{"coding":[{"system":"http://fhir.carevolution.com/codes/DemoNamespace/Religion","code":"Agnostic","display":"Agnostic","userSelected":true}]}}],"identifier":[{"use":"usual","type":{"coding":[{"system":"http://terminology.hl7.org/CodeSystem/v2-0203","code":"MR"}]},"system":"https://mydatahelps.org/identifiers/CareEvolution/MRN/CareEvolutionFHIR","value":"68ad9851-c8bd-ec11-aaab-f47bb6835a10"},{"system":"http://hl7.org/fhir/sid/us-ssn","value":"987119876"},{"system":"http://careevolution.com/fhiridentifiers#FhirPatientID","value":"d4b1d050-584f-4797-a9c7-ab72e4cd4452"},{"system":"http://fhir.carevolution.com/identifiers/CareEvolution/MRN/PACode","value":"123456780"},{"system":"http://fhir.carevolution.com/identifiers/CareEvolution/MCID","value":"ABC 123"},{"system":"http://fhir.carevolution.com/identifiers/CareEvolution/MRN/XForm","value":"f4968df0-3121-e611-8128-0a69c1b3225b"},{"system":"http://fhir.carevolution.com/identifiers/CareEvolution/MRN/PACode2","value":"1234567802"},{"system":"http://fhir.carevolution.com/identifiers/CareEvolution/HCID","value":"728771216"},{"system":"http://fhir.carevolution.com/identifiers/CareEvolution/MRN/FHIR","value":"f4968df0-3121-e611-8128-0a69c1b3225b"},{"system":"http://fhir.carevolution.com/identifiers/CareEvolution/MRN/FHIR-R4","value":"d4b1d050-584f-4797-a9c7-ab72e4cd4452"},{"system":"http://fhir.carevolution.com/identifiers/CareEvolution/MRN/RK.CareEvolution.Demo","value":"f4968df0-3121-e611-8128-0a69c1b3225b"},{"system":"http://fhir.carevolution.com/identifiers/CareEvolution/ResearchKitLinkIdentifier","value":"d368506c-6673-441b-bc5e-8cc7c7bff6ef"}],"name":[{"use":"official","_use":{"extension":[{"url":"http://careevolution.com/fhirextensions#term","valueCodeableConcept":{"coding":[{"system":"http://careevolution.com/fhircodes#NameType","code":"LegalName","display":"Legal Name","userSelected":true}]}}]},"family":"Demoski","given":["Helen"],"prefix":["Ms"]}],"telecom":[{"system":"phone","_system":{"extension":[{"url":"http://careevolution.com/fhirextensions#term","valueCodeableConcept":{"coding":[{"system":"http://careevolution.com/fhircodes#ContactInfoType","code":"HomePhone","display":"Home Phone","userSelected":true}]}}]},"value":"555-555-5555","use":"home"},{"system":"phone","_system":{"extension":[{"url":"http://careevolution.com/fhirextensions#term","valueCodeableConcept":{"coding":[{"system":"http://careevolution.com/fhircodes#ContactInfoType","code":"HomePhone","display":"Home Phone","userSelected":true}]}}]},"value":"(734) 555-1212","use":"home","_use":{"extension":[{"url":"http://careevolution.com/fhirextensions#term","valueCodeableConcept":{"coding":[{"system":"https://mydatahelps.org/codes/CareEvolutionFHIR/ContactInfoUseCode","code":"home","display":"home","userSelected":true},{"system":"https://mydatahelps.org/codes/HL7ContactInfoUseCode/Reference","code":"HP","display":"Primary home","userSelected":false}]}}]}},{"system":"phone","_system":{"extension":[{"url":"http://careevolution.com/fhirextensions#term","valueCodeableConcept":{"coding":[{"system":"http://careevolution.com/fhircodes#ContactInfoType","code":"HomePhone","display":"Home Phone","userSelected":true}]}}]},"value":"555-555-5554","use":"home","_use":{"extension":[{"url":"http://careevolution.com/fhirextensions#term","valueCodeableConcept":{"coding":[{"system":"https://mydatahelps.org/codes/CareEvolutionFHIR/ContactInfoUseCode","code":"home-1","display":"home","userSelected":true},{"system":"https://mydatahelps.org/codes/HL7ContactInfoUseCode/Reference","code":"HP","display":"Primary home","userSelected":false}]}}]}},{"system":"email","_system":{"extension":[{"url":"http://careevolution.com/fhirextensions#term","valueCodeableConcept":{"coding":[{"system":"http://careevolution.com/fhircodes#ContactInfoType","code":"Email","display":"Email","userSelected":true}]}}]},"value":"donotreploy@careevolution.com"},{"system":"email","_system":{"extension":[{"url":"http://careevolution.com/fhirextensions#term","valueCodeableConcept":{"coding":[{"system":"http://careevolution.com/fhircodes#ContactInfoType","code":"Email","display":"Email","userSelected":true}]}}]},"value":"invalid@careevolution.com"}],"gender":"female","_gender":{"extension":[{"url":"http://careevolution.com/fhirextensions#term","valueCodeableConcept":{"coding":[{"system":"http://fhir.carevolution.com/codes/DemoNamespace/Gender","code":"F","display":"F","userSelected":true},{"system":"http://careevolution.com/fhircodes#Gender","code":"F","display":"Female","userSelected":false},{"system":"https://mydatahelps.org/codes/HL7Gender/Reference","code":"F","display":"Female","userSelected":false}]}}]},"birthDate":"1950-04-21","deceasedBoolean":false,"address":[{"use":"home","line":["101 Drury Lane"],"city":"Churchill","state":"MI","postalCode":"48887","country":"USA"}],"link":[{"other":{"reference":"Patient/68ad9851-c8bd-ec11-aaab-f47bb6835a10"},"type":"seealso"},{"other":{"reference":"Patient/9545136a-c8bd-ec11-aaab-f47bb6835a10"},"type":"seealso"},{"other":{"reference":"Patient/8bad9851-c8bd-ec11-aaab-f47bb6835a10"},"type":"seealso"},{"other":{"reference":"Patient/9961303e-5b23-4333-82b3-58bb5c34a018"},"type":"seealso"}]}
{"resourceType":"Patient","id":"9961303e-5b23-4333-82b3-58bb5c34a018","meta":{"lastUpdated":"2022-07-22T16:47:06.13+00:00","source":"https://mydatahelps.org/identifiers/CareEvolution/MRN/Cedars-SinaiHealthSystem"},"extension":[{"url":"http://hl7.org/fhir/us/core/StructureDefinition/us-core-ethnicity","extension":[{"url":"text","valueString":"Not Hispanic or Latino"},{"url":"ombCategory","valueCoding":{"system":"urn:oid:2.16.840.1.113883.6.238","code":"2186-5","display":"NOT HISPANIC OR LATINO","userSelected":false}}]},{"url":"http://hl7.org/fhir/us/core/StructureDefinition/us-core-race","extension":[{"url":"text","valueString":"Other Race"},{"url":"detailed","valueCoding":{"system":"urn:oid:2.16.840.1.113883.6.238","code":"2131-1","display":"OTHER RACE","userSelected":false}}]}],"identifier":[{"use":"usual","type":{"coding":[{"system":"http://terminology.hl7.org/CodeSystem/v2-0203","code":"MR"}]},"system":"https://mydatahelps.org/identifiers/CareEvolution/MRN/Cedars-SinaiHealthSystem","value":"68ad9851-c8bd-ec11-aaab-f47bb6835a10"},{"system":"http://careevolution.com/fhiridentifiers#FhirPatientID","value":"T5rcOGMHflBFzh9qboQjc-fO-lf6G63qYq2PpAJUxxEIB"}],"name":[{"use":"official","_use":{"extension":[{"url":"http://careevolution.com/fhirextensions#term","valueCodeableConcept":{"coding":[{"system":"http://careevolution.com/fhircodes#NameType","code":"LegalName","display":"Legal Name","userSelected":true}]}}]},"family":"Xxxcshs","given":["AmbulatorySeniorF"]},{"use":"usual","family":"Xxxcshs","given":["AmbulatorySeniorF"]}],"telecom":[{"system":"phone","_system":{"extension":[{"url":"http://careevolution.com/fhirextensions#term","valueCodeableConcept":{"coding":[{"system":"http://careevolution.com/fhircodes#ContactInfoType","code":"HomePhone","display":"Home Phone","userSelected":true}]}}]},"value":"555-555-5555","use":"home"},{"system":"phone","_system":{"extension":[{"url":"http://careevolution.com/fhirextensions#term","valueCodeableConcept":{"coding":[{"system":"http://careevolution.com/fhircodes#ContactInfoType","code":"OfficePhone","display":"Office Phone","userSelected":true}]}}]},"value":"555-333-3333 x333","use":"work"},{"system":"email","_system":{"extension":[{"url":"http://careevolution.com/fhirextensions#term","valueCodeableConcept":{"coding":[{"system":"http://careevolution.com/fhircodes#ContactInfoType","code":"Email","display":"Email","userSelected":true}]}}]},"value":"david.chiu@cshs.org"},{"system":"email","_system":{"extension":[{"url":"http://careevolution.com/fhirextensions#term","valueCodeableConcept":{"coding":[{"system":"http://careevolution.com/fhircodes#ContactInfoType","code":"Email","display":"Email","userSelected":true}]}}]},"value":"andrew.berg@cshs.org"},{"system":"email","_system":{"extension":[{"url":"http://careevolution.com/fhirextensions#term","valueCodeableConcept":{"coding":[{"system":"http://careevolution.com/fhircodes#ContactInfoType","code":"Email","display":"Email","userSelected":true}]}}]},"value":"Andrew.berg@cshs.org"},{"system":"email","_system":{"extension":[{"url":"http://careevolution.com/fhirextensions#term","valueCodeableConcept":{"coding":[{"system":"http://careevolution.com/fhircodes#ContactInfoType","code":"Email","display":"Email","userSelected":true}]}}]},"value":"dchiu321@gmail.com"},{"system":"email","_system":{"extension":[{"url":"http://careevolution.com/fhirextensions#term","valueCodeableConcept":{"coding":[{"system":"http://careevolution.com/fhircodes#ContactInfoType","code":"Email","display":"Email","userSelected":true}]}}]},"value":"testing@email.com"},{"system":"email","_system":{"extension":[{"url":"http://careevolution.com/fhirextensions#term","valueCodeableConcept":{"coding":[{"system":"http://careevolution.com/fhircodes#ContactInfoType","code":"Email","display":"Email","userSelected":true}]}}]},"value":"ramin.rasoulian@icloud.com"},{"system":"email","_system":{"extension":[{"url":"http://careevolution.com/fhirextensions#term","valueCodeableConcept":{"coding":[{"system":"http://careevolution.com/fhircodes#ContactInfoType","code":"Email","display":"Email","userSelected":true}]}}]},"value":"samnghe@hotmail.com"},{"system":"phone","value":"626-315-4807","use":"mobile"}],"gender":"female","birthDate":"1947-01-01","deceasedBoolean":false,"address":[{"use":"home","line":["6500 Wilshire Blvd"],"city":"LOS ANGELES","state":"CA","postalCode":"90046","country":"USA"}],"maritalStatus":{"coding":[{"system":"https://mydatahelps.org/codes/Cedars-SinaiHealthSystem/MaritalStatus","code":"Single","display":"Single","userSelected":true}],"text":"Single"},"link":[{"other":{"reference":"Patient/68ad9851-c8bd-ec11-aaab-f47bb6835a10"},"type":"seealso"},{"other":{"reference":"Patient/9545136a-c8bd-ec11-aaab-f47bb6835a10"},"type":"seealso"},{"other":{"reference":"Patient/8bad9851-c8bd-ec11-aaab-f47bb6835a10"},"type":"seealso"},{"other":{"reference":"Patient/44d20a43-7131-494b-ba73-063ce7b4bcb2"},"type":"seealso"}]}
{"resourceType":"Patient","id":"50eca9d1-d4d4-4c3d-b049-5aac3b9cbcba","meta":{"lastUpdated":"2023-01-13T15:35:07.463+00:00","source":"https://mydatahelps.org/identifiers/CareEvolution/MRN/Cedars-SinaiHealthSystem"},"extension":[{"url":"http://hl7.org/fhir/us/core/StructureDefinition/us-core-ethnicity","extension":[{"url":"text","valueString":"Not Hispanic or Latino"},{"url":"ombCategory","valueCoding":{"system":"urn:oid:2.16.840.1.113883.6.238","code":"2186-5","display":"NOT HISPANIC OR LATINO","userSelected":false}}]},{"url":"http://hl7.org/fhir/us/core/StructureDefinition/us-core-race","extension":[{"url":"text","valueString":"Other Race"},{"url":"detailed","valueCoding":{"system":"urn:oid:2.16.840.1.113883.6.238","code":"2131-1","display":"OTHER RACE","userSelected":false}}]}],"identifier":[{"use":"usual","type":{"coding":[{"system":"http://terminology.hl7.org/CodeSystem/v2-0203","code":"MR"}]},"system":"https://mydatahelps.org/identifiers/CareEvolution/MRN/Cedars-SinaiHealthSystem","value":"34dbda27-fcd6-4733-8039-7555d34ef62c"},{"system":"http://careevolution.com/fhiridentifiers#FhirPatientID","value":"T5rcOGMHflBFzh9qboQjc-fO-lf6G63qYq2PpAJUxxEIB"}],"name":[{"use":"official","_use":{"extension":[{"url":"http://careevolution.com/fhirextensions#term","valueCodeableConcept":{"coding":[{"system":"http://careevolution.com/fhircodes#NameType","code":"LegalName","display":"Legal Name","userSelected":true}]}}]},"family":"Xxxcshs","given":["AmbulatorySeniorF"]},{"use":"usual","family":"Xxxcshs","given":["AmbulatorySeniorF"]}],"telecom":[{"system":"phone","_system":{"extension":[{"url":"http://careevolution.com/fhirextensions#term","valueCodeableConcept":{"coding":[{"system":"http://careevolution.com/fhircodes#ContactInfoType","code":"HomePhone","display":"Home Phone","userSelected":true}]}}]},"value":"555-555-5555","use":"home"},{"system":"phone","_system":{"extension":[{"url":"http://careevolution.com/fhirextensions#term","valueCodeableConcept":{"coding":[{"system":"http://careevolution.com/fhircodes#ContactInfoType","code":"OfficePhone","display":"Office Phone","userSelected":true}]}}]},"value":"555-333-3333 x333","use":"work"},{"system":"email","_system":{"extension":[{"url":"http://careevolution.com/fhirextensions#term","valueCodeableConcept":{"coding":[{"system":"http://careevolution.com/fhircodes#ContactInfoType","code":"Email","display":"Email","userSelected":true}]}}]},"value":"david.chiu@cshs.org"},{"system":"email","_system":{"extension":[{"url":"http://careevolution.com/fhirextensions#term","valueCodeableConcept":{"coding":[{"system":"http://careevolution.com/fhircodes#ContactInfoType","code":"Email","display":"Email","userSelected":true}]}}]},"value":"andrew.berg@cshs.org"},{"system":"email","_system":{"extension":[{"url":"http://careevolution.com/fhirextensions#term","valueCodeableConcept":{"coding":[{"system":"http://careevolution.com/fhircodes#ContactInfoType","code":"Email","display":"Email","userSelected":true}]}}]},"value":"Andrew.berg@cshs.org"},{"system":"email","_system":{"extension":[{"url":"http://careevolution.com/fhirextensions#term","valueCodeableConcept":{"coding":[{"system":"http://careevolution.com/fhircodes#ContactInfoType","code":"Email","display":"Email","userSelected":true}]}}]},"value":"dchiu321@gmail.com"},{"system":"email","_system":{"extension":[{"url":"http://careevolution.com/fhirextensions#term","valueCodeableConcept":{"coding":[{"system":"http://careevolution.com/fhircodes#ContactInfoType","code":"Email","display":"Email","userSelected":true}]}}]},"value":"testing@email.com"},{"system":"email","_system":{"extension":[{"url":"http://careevolution.com/fhirextensions#term","valueCodeableConcept":{"coding":[{"system":"http://careevolution.com/fhircodes#ContactInfoType","code":"Email","display":"Email","userSelected":true}]}}]},"value":"ramin.rasoulian@icloud.com"},{"system":"email","_system":{"extension":[{"url":"http://careevolution.com/fhirextensions#term","valueCodeableConcept":{"coding":[{"system":"http://careevolution.com/fhircodes#ContactInfoType","code":"Email","display":"Email","userSelected":true}]}}]},"value":"samnghe@hotmail.com"},{"system":"phone","value":"626-315-4807","use":"mobile"}],"gender":"female","birthDate":"1947-01-01","deceasedBoolean":false,"address":[{"use":"home","line":["6500 Wilshire Blvd"],"city":"LOS ANGELES","state":"CA","postalCode":"90046","country":"USA"}],"maritalStatus":{"coding":[{"system":"https://mydatahelps.org/codes/Cedars-SinaiHealthSystem/MaritalStatus","code":"Single","display":"Single","userSelected":true}],"text":"Single"},"link":[{"other":{"reference":"Patient/a5bb0b51-428e-4d98-a08f-681efbb4bd5d"},"type":"seealso"},{"other":{"reference":"Patient/34dbda27-fcd6-4733-8039-7555d34ef62c"},"type":"seealso"},{"other":{"reference":"Patient/de02190e-25ce-4c75-9eae-3a7ca0bc04d9"},"type":"seealso"}]}
{"resourceType":"Patient","id":"790b814e-0778-ec11-aaa8-89aad5fbf200","meta":{"lastUpdated":"2022-01-18T02:35:32.897+00:00","source":"https://mydatahelps.org/identifiers/CareEvolution/MRN/CMSSandbox"},"identifier":[{"use":"usual","type":{"coding":[{"system":"http://terminology.hl7.org/CodeSystem/v2-0203","code":"MR"}]},"system":"https://mydatahelps.org/identifiers/CareEvolution/MRN/CMSSandbox","value":"7c81da5c-9777-ec11-aaa8-89aad5fbf200"},{"system":"http://careevolution.com/fhiridentifiers#FhirPatientID","value":"-20140000010000"},{"system":"https://bluebutton.cms.gov/resources/variables/bene_id","value":"-20140000010000"},{"system":"https://bluebutton.cms.gov/resources/identifier/mbi-hash","value":"2b034220943953861f7b17963091ea962c13548f4b1d5f4c1013ee1779d621f4"}],"name":[{"use":"official","_use":{"extension":[{"url":"http://careevolution.com/fhirextensions#term","valueCodeableConcept":{"coding":[{"system":"http://careevolution.com/fhircodes#NameType","code":"LegalName","display":"Legal Name","userSelected":true}]}}]},"family":"Doe","given":["John","X"]}],"gender":"male","birthDate":"2014-06-01","deceasedDateTime":"1981-03-17T00:00:00-05:00","address":[{"state":"05","postalCode":"99999"}],"link":[{"other":{"reference":"Patient/4bd83f4c-8c78-ec11-aaa8-89aad5fbf200"},"type":"seealso"},{"other":{"reference":"Patient/7c81da5c-9777-ec11-aaa8-89aad5fbf200"},"type":"seealso"},{"other":{"reference":"Patient/d9134fe6-a777-ec11-aaa8-89aad5fbf200"},"type":"seealso"},{"other":{"reference":"Patient/a86ce980-d1cb-ec11-aaac-9992869f06a0"},"type":"seealso"},{"other":{"reference":"Patient/afe3c171-0778-ec11-aaa8-89aad5fbf200"},"type":"seealso"},{"other":{"reference":"Patient/77b0da10-5da9-ec11-aaab-f47bb6835a10"},"type":"seealso"},{"other":{"reference":"Patient/ec7e1768-9777-ec11-aaa8-89aad5fbf200"},"type":"seealso"},{"other":{"reference":"Patient/eb03e70a-3e9b-ec11-aaaa-8c9a8a3a4b10"},"type":"seealso"},{"other":{"reference":"Patient/add3c0d1-bf9c-ec11-aaaa-8c9a8a3a4b10"},"type":"seealso"},{"other":{"reference":"Patient/79dc6aff-a2c4-ec11-aaac-9992869f06a0"},"type":"seealso"},{"other":{"reference":"Patient/5f6a8ebd-d7f0-ec11-aaae-cc6e1ab1206c"},"type":"seealso"},{"other":{"reference":"Patient/9f81da5c-9777-ec11-aaa8-89aad5fbf200"},"type":"seealso"}]}
{"resourceType":"Patient","id":"afe3c171-0778-ec11-aaa8-89aad5fbf200","meta":{"lastUpdated":"2022-01-18T02:36:32.04+00:00","source":"https://mydatahelps.org/identifiers/CareEvolution/MRN/CareEvolutionFHIR"},"extension":[{"url":"http://hl7.org/fhir/StructureDefinition/patient-religion","valueCodeableConcept":{"coding":[{"system":"http://fhir.carevolution.com/codes/DemoNamespace/Religion","code":"Agnostic","display":"Agnostic","userSelected":true}]}}],"identifier":[{"use":"usual","type":{"coding":[{"system":"http://terminology.hl7.org/CodeSystem/v2-0203","code":"MR"}]},"system":"https://mydatahelps.org/identifiers/CareEvolution/MRN/CareEvolutionFHIR","value":"7c81da5c-9777-ec11-aaa8-89aad5fbf200"},{"system":"http://hl7.org/fhir/sid/us-ssn","value":"987119876"},{"system":"http://careevolution.com/fhiridentifiers#FhirPatientID","value":"d4b1d050-584f-4797-a9c7-ab72e4cd4452"},{"system":"http://fhir.carevolution.com/identifiers/CareEvolution/MRN/PACode","value":"123456780"},{"system":"http://fhir.carevolution.com/identifiers/CareEvolution/MCID","value":"ABC 123"},{"system":"http://fhir.carevolution.com/identifiers/CareEvolution/MRN/XForm","value":"f4968df0-3121-e611-8128-0a69c1b3225b"},{"system":"http://fhir.carevolution.com/identifiers/CareEvolution/MRN/PACode2","value":"1234567802"},{"system":"http://fhir.carevolution.com/identifiers/CareEvolution/HCID","value":"728771216"},{"system":"http://fhir.carevolution.com/identifiers/CareEvolution/MRN/FHIR","value":"f4968df0-3121-e611-8128-0a69c1b3225b"},{"system":"http://fhir.carevolution.com/identifiers/CareEvolution/MRN/FHIR-R4","value":"d4b1d050-584f-4797-a9c7-ab72e4cd4452"},{"system":"http://fhir.carevolution.com/identifiers/CareEvolution/MRN/RK.CareEvolution.Demo","value":"f4968df0-3121-e611-8128-0a69c1b3225b"},{"system":"http://fhir.carevolution.com/identifiers/CareEvolution/ResearchKitLinkIdentifier","value":"d368506c-6673-441b-bc5e-8cc7c7bff6ef"}],"name":[{"use":"official","_use":{"extension":[{"url":"http://careevolution.com/fhirextensions#term","valueCodeableConcept":{"coding":[{"system":"http://careevolution.com/fhircodes#NameType","code":"LegalName","display":"Legal Name","userSelected":true}]}}]},"family":"Demoski","given":["Helen"],"prefix":["Ms"]}],"telecom":[{"system":"phone","_system":{"extension":[{"url":"http://careevolution.com/fhirextensions#term","valueCodeableConcept":{"coding":[{"system":"http://careevolution.com/fhircodes#ContactInfoType","code":"HomePhone","display":"Home Phone","userSelected":true}]}}]},"value":"555-555-5555","use":"home"},{"system":"phone","_system":{"extension":[{"url":"http://careevolution.com/fhirextensions#term","valueCodeableConcept":{"coding":[{"system":"http://careevolution.com/fhircodes#ContactInfoType","code":"HomePhone","display":"Home Phone","userSelected":true}]}}]},"value":"(734) 555-1212","use":"home","_use":{"extension":[{"url":"http://careevolution.com/fhirextensions#term","valueCodeableConcept":{"coding":[{"system":"https://mydatahelps.org/codes/CareEvolutionFHIR/ContactInfoUseCode","code":"home","display":"home","userSelected":true},{"system":"https://mydatahelps.org/codes/HL7ContactInfoUseCode/Reference","code":"HP","display":"Primary home","userSelected":false}]}}]}},{"system":"phone","_system":{"extension":[{"url":"http://careevolution.com/fhirextensions#term","valueCodeableConcept":{"coding":[{"system":"http://careevolution.com/fhircodes#ContactInfoType","code":"HomePhone","display":"Home Phone","userSelected":true}]}}]},"value":"555-555-5554","use":"home","_use":{"extension":[{"url":"http://careevolution.com/fhirextensions#term","valueCodeableConcept":{"coding":[{"system":"https://mydatahelps.org/codes/CareEvolutionFHIR/ContactInfoUseCode","code":"home-1","display":"home","userSelected":true},{"system":"https://mydatahelps.org/codes/HL7ContactInfoUseCode/Reference","code":"HP","display":"Primary home","userSelected":false}]}}]}},{"system":"email","_system":{"extension":[{"url":"http://careevolution.com/fhirextensions#term","valueCodeableConcept":{"coding":[{"system":"http://careevolution.com/fhircodes#ContactInfoType","code":"Email","display":"Email","userSelected":true}]}}]},"value":"donotreploy@careevolution.com"},{"system":"email","_system":{"extension":[{"url":"http://careevolution.com/fhirextensions#term","valueCodeableConcept":{"coding":[{"system":"http://careevolution.com/fhircodes#ContactInfoType","code":"Email","display":"Email","userSelected":true}]}}]},"value":"invalid@careevolution.com"}],"gender":"female","_gender":{"extension":[{"url":"http://careevolution.com/fhirextensions#term","valueCodeableConcept":{"coding":[{"system":"http://fhir.carevolution.com/codes/DemoNamespace/Gender","code":"F","display":"F","userSelected":true},{"system":"http://careevolution.com/fhircodes#Gender","code":"F","display":"Female","userSelected":false},{"system":"https://mydatahelps.org/codes/HL7Gender/Reference","code":"F","display":"Female","userSelected":false}]}}]},"birthDate":"1950-04-21","deceasedBoolean":false,"address":[{"use":"home","line":["101 Drury Lane"],"city":"Churchill","state":"MI","postalCode":"48887","country":"USA"}],"link":[{"other":{"reference":"Patient/4bd83f4c-8c78-ec11-aaa8-89aad5fbf200"},"type":"seealso"},{"other":{"reference":"Patient/7c81da5c-9777-ec11-aaa8-89aad5fbf200"},"type":"seealso"},{"other":{"reference":"Patient/d9134fe6-a777-ec11-aaa8-89aad5fbf200"},"type":"seealso"},{"other":{"reference":"Patient/a86ce980-d1cb-ec11-aaac-9992869f06a0"},"type":"seealso"},{"other":{"reference":"Patient/77b0da10-5da9-ec11-aaab-f47bb6835a10"},"type":"seealso"},{"other":{"reference":"Patient/ec7e1768-9777-ec11-aaa8-89aad5fbf200"},"type":"seealso"},{"other":{"reference":"Patient/eb03e70a-3e9b-ec11-aaaa-8c9a8a3a4b10"},"type":"seealso"},{"other":{"reference":"Patient/add3c0d1-bf9c-ec11-aaaa-8c9a8a3a4b10"},"type":"seealso"},{"other":{"reference":"Patient/79dc6aff-a2c4-ec11-aaac-9992869f06a0"},"type":"seealso"},{"other":{"reference":"Patient/5f6a8ebd-d7f0-ec11-aaae-cc6e1ab1206c"},"type":"seealso"},{"other":{"reference":"Patient/790b814e-0778-ec11-aaa8-89aad5fbf200"},"type":"seealso"},{"other":{"reference":"Patient/9f81da5c-9777-ec11-aaa8-89aad5fbf200"},"type":"seealso"}]}
{"resourceType":"Patient","id":"42400b15-0a7e-ec11-aaa8-89aad5fbf200","meta":{"lastUpdated":"2022-01-25T18:10:31.963+00:00","source":"https://mydatahelps.org/identifiers/CareEvolution/MRN/Cedars-SinaiHealthSystem"},"extension":[{"url":"http://hl7.org/fhir/us/core/StructureDefinition/us-core-ethnicity","extension":[{"url":"text","valueString":"Not Hispanic or Latino"},{"url":"ombCategory","valueCoding":{"system":"urn:oid:2.16.840.1.113883.6.238","code":"2186-5","display":"NOT HISPANIC OR LATINO","userSelected":false}}]},{"url":"http://hl7.org/fhir/us/core/StructureDefinition/us-core-race","extension":[{"url":"text","valueString":"Other Race"},{"url":"detailed","valueCoding":{"system":"urn:oid:2.16.840.1.113883.6.238","code":"2131-1","display":"OTHER RACE","userSelected":false}}]}],"identifier":[{"use":"usual","type":{"coding":[{"system":"http://terminology.hl7.org/CodeSystem/v2-0203","code":"MR"}]},"system":"https://mydatahelps.org/identifiers/CareEvolution/MRN/Cedars-SinaiHealthSystem","value":"bdcc0969-0b7a-ec11-aaa8-89aad5fbf200"},{"system":"http://careevolution.com/fhiridentifiers#FhirPatientID","value":"T5rcOGMHflBFzh9qboQjc-fO-lf6G63qYq2PpAJUxxEIB"}],"name":[{"use":"official","_use":{"extension":[{"url":"http://careevolution.com/fhirextensions#term","valueCodeableConcept":{"coding":[{"system":"http://careevolution.com/fhircodes#NameType","code":"LegalName","display":"Legal Name","userSelected":true}]}}]},"family":"Xxxcshs","given":["AmbulatorySeniorF"]},{"use":"usual","family":"Xxxcshs","given":["AmbulatorySeniorF"]}],"telecom":[{"system":"phone","_system":{"extension":[{"url":"http://careevolution.com/fhirextensions#term","valueCodeableConcept":{"coding":[{"system":"http://careevolution.com/fhircodes#ContactInfoType","code":"HomePhone","display":"Home Phone","userSelected":true}]}}]},"value":"555-555-5555","use":"home"},{"system":"phone","_system":{"extension":[{"url":"http://careevolution.com/fhirextensions#term","valueCodeableConcept":{"coding":[{"system":"http://careevolution.com/fhircodes#ContactInfoType","code":"OfficePhone","display":"Office Phone","userSelected":true}]}}]},"value":"555-333-3333 x333","use":"work"},{"system":"email","_system":{"extension":[{"url":"http://careevolution.com/fhirextensions#term","valueCodeableConcept":{"coding":[{"system":"http://careevolution.com/fhircodes#ContactInfoType","code":"Email","display":"Email","userSelected":true}]}}]},"value":"andrew.berg@cshs.org"},{"system":"email","_system":{"extension":[{"url":"http://careevolution.com/fhirextensions#term","valueCodeableConcept":{"coding":[{"system":"http://careevolution.com/fhircodes#ContactInfoType","code":"Email","display":"Email","userSelected":true}]}}]},"value":"Andrew.berg@cshs.org"},{"system":"email","_system":{"extension":[{"url":"http://careevolution.com/fhirextensions#term","valueCodeableConcept":{"coding":[{"system":"http://careevolution.com/fhircodes#ContactInfoType","code":"Email","display":"Email","userSelected":true}]}}]},"value":"david.chiu@cshs.org"},{"system":"email","_system":{"extension":[{"url":"http://careevolution.com/fhirextensions#term","valueCodeableConcept":{"coding":[{"system":"http://careevolution.com/fhircodes#ContactInfoType","code":"Email","display":"Email","userSelected":true}]}}]},"value":"dchiu321@gmail.com"},{"system":"email","_system":{"extension":[{"url":"http://careevolution.com/fhirextensions#term","valueCodeableConcept":{"coding":[{"system":"http://careevolution.com/fhircodes#ContactInfoType","code":"Email","display":"Email","userSelected":true}]}}]},"value":"testing@email.com"},{"system":"email","_system":{"extension":[{"url":"http://careevolution.com/fhirextensions#term","valueCodeableConcept":{"coding":[{"system":"http://careevolution.com/fhircodes#ContactInfoType","code":"Email","display":"Email","userSelected":true}]}}]},"value":"ramin.rasoulian@icloud.com"},{"system":"email","_system":{"extension":[{"url":"http://careevolution.com/fhirextensions#term","valueCodeableConcept":{"coding":[{"system":"http://careevolution.com/fhircodes#ContactInfoType","code":"Email","display":"Email","userSelected":true}]}}]},"value":"samnghe@hotmail.com"},{"system":"phone","value":"949-419-5286","use":"mobile"}],"gender":"female","birthDate":"1947-01-01","deceasedBoolean":false,"address":[{"use":"home","line":["6500 Wilshire Blvd"],"city":"LOS ANGELES","state":"CA","postalCode":"90046","country":"USA"}],"maritalStatus":{"coding":[{"system":"https://mydatahelps.org/codes/Cedars-SinaiHealthSystem/MaritalStatus","code":"Single","display":"Single","userSelected":true}],"text":"Single"},"link":[{"other":{"reference":"Patient/bdcc0969-0b7a-ec11-aaa8-89aad5fbf200"},"type":"seealso"},{"other":{"reference":"Patient/d07ab861-1158-ea11-aa84-89965898000c"},"type":"seealso"},{"other":{"reference":"Patient/394db985-0b7a-ec11-aaa8-89aad5fbf200"},"type":"seealso"},{"other":{"reference":"Patient/b59bdeb9-0c7a-ec11-aaa8-89aad5fbf200"},"type":"seealso"},{"other":{"reference":"Patient/e0cc0969-0b7a-ec11-aaa8-89aad5fbf200"},"type":"seealso"}]}
{"resourceType":"Patient","id":"74d9b10d-a982-ec11-aaa9-986e217866bf","meta":{"lastUpdated":"2022-01-31T15:18:34.263+00:00","source":"https://mydatahelps.org/identifiers/CareEvolution/MRN/Cedars-SinaiHealthSystem"},"extension":[{"url":"http://hl7.org/fhir/us/core/StructureDefinition/us-core-ethnicity","extension":[{"url":"text","valueString":"Not Hispanic or Latino"},{"url":"ombCategory","valueCoding":{"system":"urn:oid:2.16.840.1.113883.6.238","code":"2186-5","display":"NOT HISPANIC OR LATINO","userSelected":false}}]},{"url":"http://hl7.org/fhir/us/core/StructureDefinition/us-core-race","extension":[{"url":"text","valueString":"Other Race"},{"url":"detailed","valueCoding":{"system":"urn:oid:2.16.840.1.113883.6.238","code":"2131-1","display":"OTHER RACE","userSelected":false}}]}],"identifier":[{"use":"usual","type":{"coding":[{"system":"http://terminology.hl7.org/CodeSystem/v2-0203","code":"MR"}]},"system":"https://mydatahelps.org/identifiers/CareEvolution/MRN/Cedars-SinaiHealthSystem","value":"a2d9d8d4-a682-ec11-aaa9-986e217866bf"},{"system":"http://careevolution.com/fhiridentifiers#FhirPatientID","value":"T5rcOGMHflBFzh9qboQjc-fO-lf6G63qYq2PpAJUxxEIB"}],"name":[{"use":"official","_use":{"extension":[{"url":"http://careevolution.com/fhirextensions#term","valueCodeableConcept":{"coding":[{"system":"http://careevolution.com/fhircodes#NameType","code":"LegalName","display":"Legal Name","userSelected":true}]}}]},"family":"Xxxcshs","given":["AmbulatorySeniorF"]},{"use":"usual","family":"Xxxcshs","given":["AmbulatorySeniorF"]}],"telecom":[{"system":"phone","_system":{"extension":[{"url":"http://careevolution.com/fhirextensions#term","valueCodeableConcept":{"coding":[{"system":"http://careevolution.com/fhircodes#ContactInfoType","code":"HomePhone","display":"Home Phone","userSelected":true}]}}]},"value":"555-555-5555","use":"home"},{"system":"phone","_system":{"extension":[{"url":"http://careevolution.com/fhirextensions#term","valueCodeableConcept":{"coding":[{"system":"http://careevolution.com/fhircodes#ContactInfoType","code":"OfficePhone","display":"Office Phone","userSelected":true}]}}]},"value":"555-333-3333 x333","use":"work"},{"system":"email","_system":{"extension":[{"url":"http://careevolution.com/fhirextensions#term","valueCodeableConcept":{"coding":[{"system":"http://careevolution.com/fhircodes#ContactInfoType","code":"Email","display":"Email","userSelected":true}]}}]},"value":"david.chiu@cshs.org"},{"system":"email","_system":{"extension":[{"url":"http://careevolution.com/fhirextensions#term","valueCodeableConcept":{"coding":[{"system":"http://careevolution.com/fhircodes#ContactInfoType","code":"Email","display":"Email","userSelected":true}]}}]},"value":"andrew.berg@cshs.org"},{"system":"email","_system":{"extension":[{"url":"http://careevolution.com/fhirextensions#term","valueCodeableConcept":{"coding":[{"system":"http://careevolution.com/fhircodes#ContactInfoType","code":"Email","display":"Email","userSelected":true}]}}]},"value":"Andrew.berg@cshs.org"},{"system":"email","_system":{"extension":[{"url":"http://careevolution.com/fhirextensions#term","valueCodeableConcept":{"coding":[{"system":"http://careevolution.com/fhircodes#ContactInfoType","code":"Email","display":"Email","userSelected":true}]}}]},"value":"dchiu321@gmail.com"},{"system":"email","_system":{"extension":[{"url":"http://careevolution.com/fhirextensions#term","valueCodeableConcept":{"coding":[{"system":"http://careevolution.com/fhircodes#ContactInfoType","code":"Email","display":"Email","userSelected":true}]}}]},"value":"testing@email.com"},{"system":"email","_system":{"extension":[{"url":"http://careevolution.com/fhirextensions#term","valueCodeableConcept":{"coding":[{"system":"http://careevolution.com/fhircodes#ContactInfoType","code":"Email","display":"Email","userSelected":true}]}}]},"value":"ramin.rasoulian@icloud.com"},{"system":"email","_system":{"extension":[{"url":"http://careevolution.com/fhirextensions#term","valueCodeableConcept":{"coding":[{"system":"http://careevolution.com/fhircodes#ContactInfoType","code":"Email","display":"Email","userSelected":true}]}}]},"value":"samnghe@hotmail.com"},{"system":"phone","value":"626-315-4807","use":"mobile"}],"gender":"female","birthDate":"1947-01-01","deceasedBoolean":false,"address":[{"use":"home","line":["6500 Wilshire Blvd"],"city":"LOS ANGELES","state":"CA","postalCode":"90046","country":"USA"}],"maritalStatus":{"coding":[{"system":"https://mydatahelps.org/codes/Cedars-SinaiHealthSystem/MaritalStatus","code":"Single","display":"Single","userSelected":true}],"text":"Single"},"link":[{"other":{"reference":"Patient/ef559b23-a982-ec11-aaa9-986e217866bf"},"type":"seealso"},{"other":{"reference":"Patient/c5d9d8d4-a682-ec11-aaa9-986e217866bf"},"type":"seealso"},{"other":{"reference":"Patient/62f59772-a982-ec11-aaa9-986e217866bf"},"type":"seealso"},{"other":{"reference":"Patient/bc474e80-a782-ec11-aaa9-986e217866bf"},"type":"seealso"},{"other":{"reference":"Patient/08ddf83d-a882-ec11-aaa9-986e217866bf"},"type":"seealso"},{"other":{"reference":"Patient/a2d9d8d4-a682-ec11-aaa9-986e217866bf"},"type":"seealso"}]}
{"resourceType":"Patient","id":"ef559b23-a982-ec11-aaa9-986e217866bf","meta":{"lastUpdated":"2022-01-31T15:19:12.137+00:00","source":"https://mydatahelps.org/identifiers/CareEvolution/MRN/CareEvolutionFHIR"},"extension":[{"url":"http://hl7.org/fhir/StructureDefinition/patient-religion","valueCodeableConcept":{"coding":[{"system":"http://fhir.carevolution.com/codes/DemoNamespace/Religion","code":"Agnostic","display":"Agnostic","userSelected":true}]}}],"identifier":[{"use":"usual","type":{"coding":[{"system":"http://terminology.hl7.org/CodeSystem/v2-0203","code":"MR"}]},"system":"https://mydatahelps.org/identifiers/CareEvolution/MRN/CareEvolutionFHIR","value":"a2d9d8d4-a682-ec11-aaa9-986e217866bf"},{"system":"http://hl7.org/fhir/sid/us-ssn","value":"987119876"},{"system":"http://careevolution.com/fhiridentifiers#FhirPatientID","value":"d4b1d050-584f-4797-a9c7-ab72e4cd4452"},{"system":"http://fhir.carevolution.com/identifiers/CareEvolution/MRN/PACode","value":"123456780"},{"system":"http://fhir.carevolution.com/identifiers/CareEvolution/MCID","value":"ABC 123"},{"system":"http://fhir.carevolution.com/identifiers/CareEvolution/MRN/XForm","value":"f4968df0-3121-e611-8128-0a69c1b3225b"},{"system":"http://fhir.carevolution.com/identifiers/CareEvolution/MRN/PACode2","value":"1234567802"},{"system":"http://fhir.carevolution.com/identifiers/CareEvolution/HCID","value":"728771216"},{"system":"http://fhir.carevolution.com/identifiers/CareEvolution/MRN/FHIR","value":"f4968df0-3121-e611-8128-0a69c1b3225b"},{"system":"http://fhir.carevolution.com/identifiers/CareEvolution/MRN/FHIR-R4","value":"d4b1d050-584f-4797-a9c7-ab72e4cd4452"},{"system":"http://fhir.carevolution.com/identifiers/CareEvolution/MRN/RK.CareEvolution.Demo","value":"f4968df0-3121-e611-8128-0a69c1b3225b"},{"system":"http://fhir.carevolution.com/identifiers/CareEvolution/ResearchKitLinkIdentifier","value":"d368506c-6673-441b-bc5e-8cc7c7bff6ef"}],"name":[{"use":"official","_use":{"extension":[{"url":"http://careevolution.com/fhirextensions#term","valueCodeableConcept":{"coding":[{"system":"http://careevolution.com/fhircodes#NameType","code":"LegalName","display":"Legal Name","userSelected":true}]}}]},"family":"Demoski","given":["Helen"],"prefix":["Ms"]}],"telecom":[{"system":"phone","_system":{"extension":[{"url":"http://careevolution.com/fhirextensions#term","valueCodeableConcept":{"coding":[{"system":"http://careevolution.com/fhircodes#ContactInfoType","code":"HomePhone","display":"Home Phone","userSelected":true}]}}]},"value":"555-555-5555","use":"home"},{"system":"phone","_system":{"extension":[{"url":"http://careevolution.com/fhirextensions#term","valueCodeableConcept":{"coding":[{"system":"http://careevolution.com/fhircodes#ContactInfoType","code":"HomePhone","display":"Home Phone","userSelected":true}]}}]},"value":"(734) 555-1212","use":"home","_use":{"extension":[{"url":"http://careevolution.com/fhirextensions#term","valueCodeableConcept":{"coding":[{"system":"https://mydatahelps.org/codes/CareEvolutionFHIR/ContactInfoUseCode","code":"home","display":"home","userSelected":true},{"system":"https://mydatahelps.org/codes/HL7ContactInfoUseCode/Reference","code":"HP","display":"Primary home","userSelected":false}]}}]}},{"system":"phone","_system":{"extension":[{"url":"http://careevolution.com/fhirextensions#term","valueCodeableConcept":{"coding":[{"system":"http://careevolution.com/fhircodes#ContactInfoType","code":"HomePhone","display":"Home Phone","userSelected":true}]}}]},"value":"555-555-5554","use":"home","_use":{"extension":[{"url":"http://careevolution.com/fhirextensions#term","valueCodeableConcept":{"coding":[{"system":"https://mydatahelps.org/codes/CareEvolutionFHIR/ContactInfoUseCode","code":"home-1","display":"home","userSelected":true},{"system":"https://mydatahelps.org/codes/HL7ContactInfoUseCode/Reference","code":"HP","display":"Primary home","userSelected":false}]}}]}},{"system":"email","_system":{"extension":[{"url":"http://careevolution.com/fhirextensions#term","valueCodeableConcept":{"coding":[{"system":"http://careevolution.com/fhircodes#ContactInfoType","code":"Email","display":"Email","userSelected":true}]}}]},"value":"donotreploy@careevolution.com"},{"system":"email","_system":{"extension":[{"url":"http://careevolution.com/fhirextensions#term","valueCodeableConcept":{"coding":[{"system":"http://careevolution.com/fhircodes#ContactInfoType","code":"Email","display":"Email","userSelected":true}]}}]},"value":"invalid@careevolution.com"}],"gender":"female","_gender":{"extension":[{"url":"http://careevolution.com/fhirextensions#term","valueCodeableConcept":{"coding":[{"system":"http://fhir.carevolution.com/codes/DemoNamespace/Gender","code":"F","display":"F","userSelected":true},{"system":"http://careevolution.com/fhircodes#Gender","code":"F","display":"Female","userSelected":false},{"system":"https://mydatahelps.org/codes/HL7Gender/Reference","code":"F","display":"Female","userSelected":false}]}}]},"birthDate":"1950-04-21","deceasedBoolean":false,"address":[{"use":"home","line":["101 Drury Lane"],"city":"Churchill","state":"MI","postalCode":"48887","country":"USA"}],"link":[{"other":{"reference":"Patient/c5d9d8d4-a682-ec11-aaa9-986e217866bf"},"type":"seealso"},{"other":{"reference":"Patient/74d9b10d-a982-ec11-aaa9-986e217866bf"},"type":"seealso"},{"other":{"reference":"Patient/62f59772-a982-ec11-aaa9-986e217866bf"},"type":"seealso"},{"other":{"reference":"Patient/bc474e80-a782-ec11-aaa9-986e217866bf"},"type":"seealso"},{"other":{"reference":"Patient/08ddf83d-a882-ec11-aaa9-986e217866bf"},"type":"seealso"},{"other":{"reference":"Patient/a2d9d8d4-a682-ec11-aaa9-986e217866bf"},"type":"seealso"}]}
{"resourceType":"Patient","id":"62f59772-a982-ec11-aaa9-986e217866bf","meta":{"lastUpdated":"2022-01-31T15:21:23.543+00:00","source":"https://mydatahelps.org/identifiers/CareEvolution/MRN/CMSSandbox"},"identifier":[{"use":"usual","type":{"coding":[{"system":"http://terminology.hl7.org/CodeSystem/v2-0203","code":"MR"}]},"system":"https://mydatahelps.org/identifiers/CareEvolution/MRN/CMSSandbox","value":"a2d9d8d4-a682-ec11-aaa9-986e217866bf"},{"system":"http://careevolution.com/fhiridentifiers#FhirPatientID","value":"-20140000010000"},{"system":"https://bluebutton.cms.gov/resources/variables/bene_id","value":"-20140000010000"},{"system":"https://bluebutton.cms.gov/resources/identifier/mbi-hash","value":"2b034220943953861f7b17963091ea962c13548f4b1d5f4c1013ee1779d621f4"}],"name":[{"use":"official","_use":{"extension":[{"url":"http://careevolution.com/fhirextensions#term","valueCodeableConcept":{"coding":[{"system":"http://careevolution.com/fhircodes#NameType","code":"LegalName","display":"Legal Name","userSelected":true}]}}]},"family":"Doe","given":["John","X"]}],"gender":"male","birthDate":"2014-06-01","deceasedDateTime":"1981-03-17T00:00:00-05:00","address":[{"state":"05","postalCode":"99999"}],"link":[{"other":{"reference":"Patient/ef559b23-a982-ec11-aaa9-986e217866bf"},"type":"seealso"},{"other":{"reference":"Patient/c5d9d8d4-a682-ec11-aaa9-986e217866bf"},"type":"seealso"},{"other":{"reference":"Patient/74d9b10d-a982-ec11-aaa9-986e217866bf"},"type":"seealso"},{"other":{"reference":"Patient/bc474e80-a782-ec11-aaa9-986e217866bf"},"type":"seealso"},{"other":{"reference":"Patient/08ddf83d-a882-ec11-aaa9-986e217866bf"},"type":"seealso"},{"other":{"reference":"Patient/a2d9d8d4-a682-ec11-aaa9-986e217866bf"},"type":"seealso"}]}
{"resourceType":"Patient","id":"4530e8d1-ad82-ec11-aaa9-986e217866bf","meta":{"lastUpdated":"2022-01-31T15:52:44.27+00:00","source":"https://mydatahelps.org/identifiers/CareEvolution/MRN/Cedars-SinaiHealthSystem"},"extension":[{"url":"http://hl7.org/fhir/us/core/StructureDefinition/us-core-ethnicity","extension":[{"url":"text","valueString":"Not Hispanic or Latino"},{"url":"ombCategory","valueCoding":{"system":"urn:oid:2.16.840.1.113883.6.238","code":"2186-5","display":"NOT HISPANIC OR LATINO","userSelected":false}}]},{"url":"http://hl7.org/fhir/us/core/StructureDefinition/us-core-race","extension":[{"url":"text","valueString":"Other Race"},{"url":"detailed","valueCoding":{"system":"urn:oid:2.16.840.1.113883.6.238","code":"2131-1","display":"OTHER RACE","userSelected":false}}]}],"identifier":[{"use":"usual","type":{"coding":[{"system":"http://terminology.hl7.org/CodeSystem/v2-0203","code":"MR"}]},"system":"https://mydatahelps.org/identifiers/CareEvolution/MRN/Cedars-SinaiHealthSystem","value":"8fa027e4-a982-ec11-aaa9-986e217866bf"},{"system":"http://careevolution.com/fhiridentifiers#FhirPatientID","value":"T5rcOGMHflBFzh9qboQjc-fO-lf6G63qYq2PpAJUxxEIB"}],"name":[{"use":"official","_use":{"extension":[{"url":"http://careevolution.com/fhirextensions#term","valueCodeableConcept":{"coding":[{"system":"http://careevolution.com/fhircodes#NameType","code":"LegalName","display":"Legal Name","userSelected":true}]}}]},"family":"Xxxcshs","given":["AmbulatorySeniorF"]},{"use":"usual","family":"Xxxcshs","given":["AmbulatorySeniorF"]}],"telecom":[{"system":"phone","_system":{"extension":[{"url":"http://careevolution.com/fhirextensions#term","valueCodeableConcept":{"coding":[{"system":"http://careevolution.com/fhircodes#ContactInfoType","code":"HomePhone","display":"Home Phone","userSelected":true}]}}]},"value":"555-555-5555","use":"home"},{"system":"phone","_system":{"extension":[{"url":"http://careevolution.com/fhirextensions#term","valueCodeableConcept":{"coding":[{"system":"http://careevolution.com/fhircodes#ContactInfoType","code":"OfficePhone","display":"Office Phone","userSelected":true}]}}]},"value":"555-333-3333 x333","use":"work"},{"system":"email","_system":{"extension":[{"url":"http://careevolution.com/fhirextensions#term","valueCodeableConcept":{"coding":[{"system":"http://careevolution.com/fhircodes#ContactInfoType","code":"Email","display":"Email","userSelected":true}]}}]},"value":"david.chiu@cshs.org"},{"system":"email","_system":{"extension":[{"url":"http://careevolution.com/fhirextensions#term","valueCodeableConcept":{"coding":[{"system":"http://careevolution.com/fhircodes#ContactInfoType","code":"Email","display":"Email","userSelected":true}]}}]},"value":"andrew.berg@cshs.org"},{"system":"email","_system":{"extension":[{"url":"http://careevolution.com/fhirextensions#term","valueCodeableConcept":{"coding":[{"system":"http://careevolution.com/fhircodes#ContactInfoType","code":"Email","display":"Email","userSelected":true}]}}]},"value":"Andrew.berg@cshs.org"},{"system":"email","_system":{"extension":[{"url":"http://careevolution.com/fhirextensions#term","valueCodeableConcept":{"coding":[{"system":"http://careevolution.com/fhircodes#ContactInfoType","code":"Email","display":"Email","userSelected":true}]}}]},"value":"dchiu321@gmail.com"},{"system":"email","_system":{"extension":[{"url":"http://careevolution.com/fhirextensions#term","valueCodeableConcept":{"coding":[{"system":"http://careevolution.com/fhircodes#ContactInfoType","code":"Email","display":"Email","userSelected":true}]}}]},"value":"testing@email.com"},{"system":"email","_system":{"extension":[{"url":"http://careevolution.com/fhirextensions#term","valueCodeableConcept":{"coding":[{"system":"http://careevolution.com/fhircodes#ContactInfoType","code":"Email","display":"Email","userSelected":true}]}}]},"value":"ramin.rasoulian@icloud.com"},{"system":"email","_system":{"extension":[{"url":"http://careevolution.com/fhirextensions#term","valueCodeableConcept":{"coding":[{"system":"http://careevolution.com/fhircodes#ContactInfoType","code":"Email","display":"Email","userSelected":true}]}}]},"value":"samnghe@hotmail.com"},{"system":"phone","value":"626-315-4807","use":"mobile"}],"gender":"female","birthDate":"1947-01-01","deceasedBoolean":false,"address":[{"use":"home","line":["6500 Wilshire Blvd"],"city":"LOS ANGELES","state":"CA","postalCode":"90046","country":"USA"}],"maritalStatus":{"coding":[{"system":"https://mydatahelps.org/codes/Cedars-SinaiHealthSystem/MaritalStatus","code":"Single","display":"Single","userSelected":true}],"text":"Single"},"link":[{"other":{"reference":"Patient/067e3a24-ae82-ec11-aaa9-986e217866bf"},"type":"seealso"},{"other":{"reference":"Patient/a053ddaf-ad82-ec11-aaa9-986e217866bf"},"type":"seealso"},{"other":{"reference":"Patient/afa027e4-a982-ec11-aaa9-986e217866bf"},"type":"seealso"},{"other":{"reference":"Patient/8fa027e4-a982-ec11-aaa9-986e217866bf"},"type":"seealso"},{"other":{"reference":"Patient/9c3aa4e8-ad82-ec11-aaa9-986e217866bf"},"type":"seealso"},{"other":{"reference":"Patient/cb4ce1e9-ac82-ec11-aaa9-986e217866bf"},"type":"seealso"}]}
{"resourceType":"Patient","id":"9c3aa4e8-ad82-ec11-aaa9-986e217866bf","meta":{"lastUpdated":"2022-01-31T15:53:19.58+00:00","source":"https://mydatahelps.org/identifiers/CareEvolution/MRN/CMSSandbox"},"identifier":[{"use":"usual","type":{"coding":[{"system":"http://terminology.hl7.org/CodeSystem/v2-0203","code":"MR"}]},"system":"https://mydatahelps.org/identifiers/CareEvolution/MRN/CMSSandbox","value":"8fa027e4-a982-ec11-aaa9-986e217866bf"},{"system":"http://careevolution.com/fhiridentifiers#FhirPatientID","value":"-20140000010000"},{"system":"https://bluebutton.cms.gov/resources/variables/bene_id","value":"-20140000010000"},{"system":"https://bluebutton.cms.gov/resources/identifier/mbi-hash","value":"2b034220943953861f7b17963091ea962c13548f4b1d5f4c1013ee1779d621f4"}],"name":[{"use":"official","_use":{"extension":[{"url":"http://careevolution.com/fhirextensions#term","valueCodeableConcept":{"coding":[{"system":"http://careevolution.com/fhircodes#NameType","code":"LegalName","display":"Legal Name","userSelected":true}]}}]},"family":"Doe","given":["John","X"]}],"gender":"male","birthDate":"2014-06-01","deceasedDateTime":"1981-03-17T00:00:00-05:00","address":[{"state":"05","postalCode":"99999"}],"link":[{"other":{"reference":"Patient/067e3a24-ae82-ec11-aaa9-986e217866bf"},"type":"seealso"},{"other":{"reference":"Patient/a053ddaf-ad82-ec11-aaa9-986e217866bf"},"type":"seealso"},{"other":{"reference":"Patient/afa027e4-a982-ec11-aaa9-986e217866bf"},"type":"seealso"},{"other":{"reference":"Patient/8fa027e4-a982-ec11-aaa9-986e217866bf"},"type":"seealso"},{"other":{"reference":"Patient/4530e8d1-ad82-ec11-aaa9-986e217866bf"},"type":"seealso"},{"other":{"reference":"Patient/cb4ce1e9-ac82-ec11-aaa9-986e217866bf"},"type":"seealso"}]}
{"resourceType":"Patient","id":"067e3a24-ae82-ec11-aaa9-986e217866bf","meta":{"lastUpdated":"2022-01-31T15:54:59.567+00:00","source":"https://mydatahelps.org/identifiers/CareEvolution/MRN/CareEvolutionFHIR"},"extension":[{"url":"http://hl7.org/fhir/StructureDefinition/patient-religion","valueCodeableConcept":{"coding":[{"system":"http://fhir.carevolution.com/codes/DemoNamespace/Religion","code":"Agnostic","display":"Agnostic","userSelected":true}]}}],"identifier":[{"use":"usual","type":{"coding":[{"system":"http://terminology.hl7.org/CodeSystem/v2-0203","code":"MR"}]},"system":"https://mydatahelps.org/identifiers/CareEvolution/MRN/CareEvolutionFHIR","value":"8fa027e4-a982-ec11-aaa9-986e217866bf"},{"system":"http://hl7.org/fhir/sid/us-ssn","value":"987119876"},{"system":"http://careevolution.com/fhiridentifiers#FhirPatientID","value":"d4b1d050-584f-4797-a9c7-ab72e4cd4452"},{"system":"http://fhir.carevolution.com/identifiers/CareEvolution/MRN/PACode","value":"123456780"},{"system":"http://fhir.carevolution.com/identifiers/CareEvolution/MCID","value":"ABC 123"},{"system":"http://fhir.carevolution.com/identifiers/CareEvolution/MRN/XForm","value":"f4968df0-3121-e611-8128-0a69c1b3225b"},{"system":"http://fhir.carevolution.com/identifiers/CareEvolution/MRN/PACode2","value":"1234567802"},{"system":"http://fhir.carevolution.com/identifiers/CareEvolution/HCID","value":"728771216"},{"system":"http://fhir.carevolution.com/identifiers/CareEvolution/MRN/FHIR","value":"f4968df0-3121-e611-8128-0a69c1b3225b"},{"system":"http://fhir.carevolution.com/identifiers/CareEvolution/MRN/FHIR-R4","value":"d4b1d050-584f-4797-a9c7-ab72e4cd4452"},{"system":"http://fhir.carevolution.com/identifiers/CareEvolution/MRN/RK.CareEvolution.Demo","value":"f4968df0-3121-e611-8128-0a69c1b3225b"},{"system":"http://fhir.carevolution.com/identifiers/CareEvolution/ResearchKitLinkIdentifier","value":"d368506c-6673-441b-bc5e-8cc7c7bff6ef"}],"name":[{"use":"official","_use":{"extension":[{"url":"http://careevolution.com/fhirextensions#term","valueCodeableConcept":{"coding":[{"system":"http://careevolution.com/fhircodes#NameType","code":"LegalName","display":"Legal Name","userSelected":true}]}}]},"family":"Demoski","given":["Helen"],"prefix":["Ms"]}],"telecom":[{"system":"phone","_system":{"extension":[{"url":"http://careevolution.com/fhirextensions#term","valueCodeableConcept":{"coding":[{"system":"http://careevolution.com/fhircodes#ContactInfoType","code":"HomePhone","display":"Home Phone","userSelected":true}]}}]},"value":"555-555-5555","use":"home"},{"system":"phone","_system":{"extension":[{"url":"http://careevolution.com/fhirextensions#term","valueCodeableConcept":{"coding":[{"system":"http://careevolution.com/fhircodes#ContactInfoType","code":"HomePhone","display":"Home Phone","userSelected":true}]}}]},"value":"(734) 555-1212","use":"home","_use":{"extension":[{"url":"http://careevolution.com/fhirextensions#term","valueCodeableConcept":{"coding":[{"system":"https://mydatahelps.org/codes/CareEvolutionFHIR/ContactInfoUseCode","code":"home","display":"home","userSelected":true},{"system":"https://mydatahelps.org/codes/HL7ContactInfoUseCode/Reference","code":"HP","display":"Primary home","userSelected":false}]}}]}},{"system":"phone","_system":{"extension":[{"url":"http://careevolution.com/fhirextensions#term","valueCodeableConcept":{"coding":[{"system":"http://careevolution.com/fhircodes#ContactInfoType","code":"HomePhone","display":"Home Phone","userSelected":true}]}}]},"value":"555-555-5554","use":"home","_use":{"extension":[{"url":"http://careevolution.com/fhirextensions#term","valueCodeableConcept":{"coding":[{"system":"https://mydatahelps.org/codes/CareEvolutionFHIR/ContactInfoUseCode","code":"home-1","display":"home","userSelected":true},{"system":"https://mydatahelps.org/codes/HL7ContactInfoUseCode/Reference","code":"HP","display":"Primary home","userSelected":false}]}}]}},{"system":"email","_system":{"extension":[{"url":"http://careevolution.com/fhirextensions#term","valueCodeableConcept":{"coding":[{"system":"http://careevolution.com/fhircodes#ContactInfoType","code":"Email","display":"Email","userSelected":true}]}}]},"value":"donotreploy@careevolution.com"},{"system":"email","_system":{"extension":[{"url":"http://careevolution.com/fhirextensions#term","valueCodeableConcept":{"coding":[{"system":"http://careevolution.com/fhircodes#ContactInfoType","code":"Email","display":"Email","userSelected":true}]}}]},"value":"invalid@careevolution.com"}],"gender":"female","_gender":{"extension":[{"url":"http://careevolution.com/fhirextensions#term","valueCodeableConcept":{"coding":[{"system":"http://fhir.carevolution.com/codes/DemoNamespace/Gender","code":"F","display":"F","userSelected":true},{"system":"http://careevolution.com/fhircodes#Gender","code":"F","display":"Female","userSelected":false},{"system":"https://mydatahelps.org/codes/HL7Gender/Reference","code":"F","display":"Female","userSelected":false}]}}]},"birthDate":"1950-04-21","deceasedBoolean":false,"address":[{"use":"home","line":["101 Drury Lane"],"city":"Churchill","state":"MI","postalCode":"48887","country":"USA"}],"link":[{"other":{"reference":"Patient/a053ddaf-ad82-ec11-aaa9-986e217866bf"},"type":"seealso"},{"other":{"reference":"Patient/afa027e4-a982-ec11-aaa9-986e217866bf"},"type":"seealso"},{"other":{"reference":"Patient/8fa027e4-a982-ec11-aaa9-986e217866bf"},"type":"seealso"},{"other":{"reference":"Patient/4530e8d1-ad82-ec11-aaa9-986e217866bf"},"type":"seealso"},{"other":{"reference":"Patient/9c3aa4e8-ad82-ec11-aaa9-986e217866bf"},"type":"seealso"},{"other":{"reference":"Patient/cb4ce1e9-ac82-ec11-aaa9-986e217866bf"},"type":"seealso"}]}
{"resourceType":"Patient","id":"a86ce980-d1cb-ec11-aaac-9992869f06a0","meta":{"lastUpdated":"2022-05-04T17:42:02.317+00:00","source":"https://mydatahelps.org/identifiers/CareEvolution/MRN/Cedars-SinaiHealthSystem"},"extension":[{"url":"http://hl7.org/fhir/us/core/StructureDefinition/us-core-ethnicity","extension":[{"url":"text","valueString":"Not Hispanic or Latino"},{"url":"ombCategory","valueCoding":{"system":"urn:oid:2.16.840.1.113883.6.238","code":"2186-5","display":"NOT HISPANIC OR LATINO","userSelected":false}}]},{"url":"http://hl7.org/fhir/us/core/StructureDefinition/us-core-race","extension":[{"url":"text","valueString":"Other Race"},{"url":"detailed","valueCoding":{"system":"urn:oid:2.16.840.1.113883.6.238","code":"2131-1","display":"OTHER RACE","userSelected":false}}]}],"identifier":[{"use":"usual","type":{"coding":[{"system":"http://terminology.hl7.org/CodeSystem/v2-0203","code":"MR"}]},"system":"https://mydatahelps.org/identifiers/CareEvolution/MRN/Cedars-SinaiHealthSystem","value":"7c81da5c-9777-ec11-aaa8-89aad5fbf200"},{"system":"http://careevolution.com/fhiridentifiers#FhirPatientID","value":"T5rcOGMHflBFzh9qboQjc-fO-lf6G63qYq2PpAJUxxEIB"}],"name":[{"use":"official","_use":{"extension":[{"url":"http://careevolution.com/fhirextensions#term","valueCodeableConcept":{"coding":[{"system":"http://careevolution.com/fhircodes#NameType","code":"LegalName","display":"Legal Name","userSelected":true}]}}]},"family":"Xxxcshs","given":["AmbulatorySeniorF"]},{"use":"usual","family":"Xxxcshs","given":["AmbulatorySeniorF"]}],"telecom":[{"system":"phone","_system":{"extension":[{"url":"http://careevolution.com/fhirextensions#term","valueCodeableConcept":{"coding":[{"system":"http://careevolution.com/fhircodes#ContactInfoType","code":"HomePhone","display":"Home Phone","userSelected":true}]}}]},"value":"555-555-5555","use":"home"},{"system":"phone","_system":{"extension":[{"url":"http://careevolution.com/fhirextensions#term","valueCodeableConcept":{"coding":[{"system":"http://careevolution.com/fhircodes#ContactInfoType","code":"OfficePhone","display":"Office Phone","userSelected":true}]}}]},"value":"555-333-3333 x333","use":"work"},{"system":"email","_system":{"extension":[{"url":"http://careevolution.com/fhirextensions#term","valueCodeableConcept":{"coding":[{"system":"http://careevolution.com/fhircodes#ContactInfoType","code":"Email","display":"Email","userSelected":true}]}}]},"value":"david.chiu@cshs.org"},{"system":"email","_system":{"extension":[{"url":"http://careevolution.com/fhirextensions#term","valueCodeableConcept":{"coding":[{"system":"http://careevolution.com/fhircodes#ContactInfoType","code":"Email","display":"Email","userSelected":true}]}}]},"value":"andrew.berg@cshs.org"},{"system":"email","_system":{"extension":[{"url":"http://careevolution.com/fhirextensions#term","valueCodeableConcept":{"coding":[{"system":"http://careevolution.com/fhircodes#ContactInfoType","code":"Email","display":"Email","userSelected":true}]}}]},"value":"Andrew.berg@cshs.org"},{"system":"email","_system":{"extension":[{"url":"http://careevolution.com/fhirextensions#term","valueCodeableConcept":{"coding":[{"system":"http://careevolution.com/fhircodes#ContactInfoType","code":"Email","display":"Email","userSelected":true}]}}]},"value":"dchiu321@gmail.com"},{"system":"email","_system":{"extension":[{"url":"http://careevolution.com/fhirextensions#term","valueCodeableConcept":{"coding":[{"system":"http://careevolution.com/fhircodes#ContactInfoType","code":"Email","display":"Email","userSelected":true}]}}]},"value":"testing@email.com"},{"system":"email","_system":{"extension":[{"url":"http://careevolution.com/fhirextensions#term","valueCodeableConcept":{"coding":[{"system":"http://careevolution.com/fhircodes#ContactInfoType","code":"Email","display":"Email","userSelected":true}]}}]},"value":"ramin.rasoulian@icloud.com"},{"system":"email","_system":{"extension":[{"url":"http://careevolution.com/fhirextensions#term","valueCodeableConcept":{"coding":[{"system":"http://careevolution.com/fhircodes#ContactInfoType","code":"Email","display":"Email","userSelected":true}]}}]},"value":"samnghe@hotmail.com"},{"system":"phone","value":"626-315-4807","use":"mobile"}],"gender":"female","birthDate":"1947-01-01","deceasedBoolean":false,"address":[{"use":"home","line":["6500 Wilshire Blvd"],"city":"LOS ANGELES","state":"CA","postalCode":"90046","country":"USA"}],"maritalStatus":{"coding":[{"system":"https://mydatahelps.org/codes/Cedars-SinaiHealthSystem/MaritalStatus","code":"Single","display":"Single","userSelected":true}],"text":"Single"},"link":[{"other":{"reference":"Patient/4bd83f4c-8c78-ec11-aaa8-89aad5fbf200"},"type":"seealso"},{"other":{"reference":"Patient/7c81da5c-9777-ec11-aaa8-89aad5fbf200"},"type":"seealso"},{"other":{"reference":"Patient/d9134fe6-a777-ec11-aaa8-89aad5fbf200"},"type":"seealso"},{"other":{"reference":"Patient/afe3c171-0778-ec11-aaa8-89aad5fbf200"},"type":"seealso"},{"other":{"reference":"Patient/77b0da10-5da9-ec11-aaab-f47bb6835a10"},"type":"seealso"},{"other":{"reference":"Patient/ec7e1768-9777-ec11-aaa8-89aad5fbf200"},"type":"seealso"},{"other":{"reference":"Patient/eb03e70a-3e9b-ec11-aaaa-8c9a8a3a4b10"},"type":"seealso"},{"other":{"reference":"Patient/add3c0d1-bf9c-ec11-aaaa-8c9a8a3a4b10"},"type":"seealso"},{"other":{"reference":"Patient/79dc6aff-a2c4-ec11-aaac-9992869f06a0"},"type":"seealso"},{"other":{"reference":"Patient/5f6a8ebd-d7f0-ec11-aaae-cc6e1ab1206c"},"type":"seealso"},{"other":{"reference":"Patient/790b814e-0778-ec11-aaa8-89aad5fbf200"},"type":"seealso"},{"other":{"reference":"Patient/9f81da5c-9777-ec11-aaa8-89aad5fbf200"},"type":"seealso"}]}
